{
  "resourceType": "Bundle",
  "id": "10bb101f-a121-4264-a920-67be9cb82c74",
  "type": "message",
  "timestamp": "2015-07-14T11:15:33+10:00",
  "meta": {
    "lastUpdated": "2015-07-14T11:15:33+10:00"
  },
  "entry": [
    {
      "fullUrl": "urn:uuid:267b18ce-3d37-4581-9baa-6fada338038b",
      "resource": {
        "resourceType": "MessageHeader",
        "id": "267b18ce-3d37-4581-9baa-6fada338038b",
        "eventCoding": {
          "system": "http://example.org/fhir/message-events",
          "code": "patient-link"
        },
        "source": {
          "name": "legekontor navn",
          "endpoint": "urn:oid:2.16.578.1.12.4.1.2.102287"
        },
        "focus": [
          {
            "reference": "http://acme.com/ehr/fhir/Questionnaire/q1"
          },
          {
            "reference": "http://acme.com/ehr/fhir/QuestionnaireResponse/qr1"
          }
        ]
      }
    },
    {
      "fullUrl": "http://acme.com/ehr/fhir/Questionnaire/q1",
      "resource": {
        "resourceType": "Questionnaire",
        "title": "hello world"
      }
    },
    {
      "fullUrl": "http://acme.com/ehr/fhir/QuestionnaireResponse/qr1",
      "resource": {
        "resourceType": "QuestionnaireResponse",
        "questionnaire": "my-questionnaire-canonical",
        "subject": {
          "identifier": {
            "system": "urn:oid:2.16.578.1.12.4.1.4.1",
            "value": "28038203977"
          }
        },
        "author": {
          "identifier": {
            "system": "urn:oid:2.16.578.1.12.4.1.4.4",
            "value": "9111492"
          }
        }
      }
    }
  ]
}
