{
  "id":"2ba46b83-3054-4630-802a-380731a75bd3",
  "resourceType":"Bundle",
  "type":"message",
  "timestamp":"2021-04-20T15:29:14.371Z",
  "entry":[
    {
      "fullUrl":"urn:uuid:2d17eca3-5d8f-41c0-a723-af9f292044ba",
      "resource":{
        "id":"2d17eca3-5d8f-41c0-a723-af9f292044ba",
        "resourceType":"MessageHeader",
        "source":{
          "endpoint":"http://something.no/epj"
        },
        "destination": [
          {
            "endpoint": "http://nav.no/hops"
          }
        ],
        "eventUri":"bestilling",
        "focus":[
          {
            "reference":"urn:uuid:5b4324a6-5a4c-442a-b004-23b95631c6ac"
          }
        ]
      }
    },
    {
      "fullUrl":"urn:uuid:5b4324a6-5a4c-442a-b004-23b95631c6ac",
      "resource":{
        "id":"5b4324a6-5a4c-442a-b004-23b95631c6ac",
        "resourceType":"Task",
        "status":"draft",
        "intent":"order",
        "input":[
          {
            "type":{
              "coding":[
                {
                  "system":"http://hl7.org/fhir/uv/sdc/CodeSystem/temp",
                  "code":"questionnaire"
                }
              ]
            },
            "valueReference":{
              "reference":"urn:uuid:0358dcea-de26-430f-8cc2-8591e701a5b5"
            }
          }
        ]
      }
    },
    {
      "fullUrl":"urn:uuid:0358dcea-de26-430f-8cc2-8591e701a5b5",
      "resource":{
        "id":"0358dcea-de26-430f-8cc2-8591e701a5b5",
        "resourceType":"Questionnaire",
        "status":"draft"
      }
    }
  ]
}
