{
  "id": "2ba46b83-3054-4630-802a-380731a75bd3",
  "resourceType": "Bundle",
  "type": "message",
  "timestamp": "2021-04-20T15:29:14.371Z",
  "entry": [
    {
      "fullUrl": "urn:uuid:2d17eca3-5d8f-41c0-a723-af9f292044ba",
      "resource": {
        "id": "2d17eca3-5d8f-41c0-a723-af9f292044ba",
        "resourceType": "MessageHeader",
        "source": {
          "endpoint": "http://hops-bestiller-backend"
        },
        "destination": [
          {
            "endpoint": "helseopplysninger.hops-bestilling",
            "receiver": {
              "type": "Practitioner",
              "identifier": {
                "system": "urn:oid:2.16.578.1.12.4.1.4.1",
                "value": "15097902396"
              }
            }
          }
        ],
        "eventUri": "bestilling",
        "author": {
          "type": "Practitioner",
          "identifier": {
            "system": "urn:oid:2.16.578.1.12.4.1.4.1",
            "value": "123456789"
          }
        },
        "focus": [
          {
            "reference": "urn:uuid:5b4324a6-5a4c-442a-b004-23b95631c6ac"
          },
          {
            "reference": "urn:uuid:0358dcea-de26-430f-8cc2-8591e701a5b5"
          }
        ]
      }
    },
    {
      "fullUrl": "urn:uuid:5b4324a6-5a4c-442a-b004-23b95631c6ac",
      "resource": {
        "id": "5b4324a6-5a4c-442a-b004-23b95631c6ac",
        "resourceType": "Task",
        "status": "draft",
        "intent": "order",
        "description": "Dette er en forespørsel",
        "for": {
          "type": "Patient",
          "identifier": {
            "system": "urn:oid:2.16.578.1.12.4.1.4.1",
            "value": "15097902396"
          }
        }
      }
    },
    {
      "fullUrl": "urn:uuid:0358dcea-de26-430f-8cc2-8591e701a5b5",
      "resource": {
        "id": "0358dcea-de26-430f-8cc2-8591e701a5b5",
        "name": "Skjema1",
        "resourceType": "Questionnaire",
        "status": "draft",
        "item": [
          {
            "linkId": "id-for-item",
            "type": "string",
            "text": "Utydpende informasjon om funksjonsevne"
          }
        ]
      }
    }
  ]
}